Folder: elec_workstation/data_txt

Note: data_txt/acv1.bin.txt
Apr. 7, 2019   11:44:27
A.C. Voltammetry
File: D:\process\data\acv1.bin.txt
Data Source:  Experiment
Instrument Model:  CHI900D
Header: 
Note: 

Init E (V) = 0.5
Final E (V) = -0.1
Incr E (V) = 0.004
Amplitude (V) = 0.025
Frequency (Hz) = 50
Sample Period (sec) = 0.5
Quiet Time (sec) = 2
Sensitivity (A/V) = 1e-5

Potential/V, Total(i/A), In-phase(i/A), Out-of-phase(i/A)

0.496, 4.055e-6, 1.453e-6, 3.785e-6
0.492, 4.039e-6, 1.443e-6, 3.773e-6
0.488, 4.030e-6, 1.431e-6, 3.768e-6
0.484, 4.017e-6, 1.435e-6, 3.752e-6
0.480, 4.009e-6, 1.422e-6, 3.749e-6
0.476, 3.990e-6, 1.412e-6, 3.732e-6
0.472, 3.992e-6, 1.410e-6, 3.735e-6
0.468, 3.981e-6, 1.397e-6, 3.727e-6
0.464, 3.978e-6, 1.398e-6, 3.724e-6
0.460, 3.971e-6, 1.389e-6, 3.720e-6
0.456, 3.962e-6, 1.380e-6, 3.715e-6
0.452, 3.951e-6, 1.380e-6, 3.702e-6
0.448, 3.958e-6, 1.384e-6, 3.708e-6
0.444, 3.954e-6, 1.374e-6, 3.708e-6
0.440, 3.951e-6, 1.373e-6, 3.705e-6
0.436, 3.953e-6, 1.370e-6, 3.708e-6
0.432, 3.950e-6, 1.368e-6, 3.705e-6
0.428, 3.950e-6, 1.366e-6, 3.707e-6
0.424, 3.955e-6, 1.363e-6, 3.712e-6
0.420, 3.958e-6, 1.369e-6, 3.714e-6
0.416, 3.961e-6, 1.365e-6, 3.718e-6
0.412, 3.963e-6, 1.362e-6, 3.721e-6
0.408, 3.967e-6, 1.368e-6, 3.723e-6
0.404, 3.967e-6, 1.366e-6, 3.725e-6
0.400, 3.973e-6, 1.368e-6, 3.730e-6
0.396, 3.979e-6, 1.366e-6, 3.737e-6
0.392, 3.990e-6, 1.372e-6, 3.746e-6
0.388, 4.001e-6, 1.381e-6, 3.756e-6
0.384, 4.007e-6, 1.384e-6, 3.760e-6
0.380, 4.023e-6, 1.389e-6, 3.775e-6
0.376, 4.031e-6, 1.398e-6, 3.780e-6
0.372, 4.042e-6, 1.413e-6, 3.787e-6
0.368, 4.062e-6, 1.421e-6, 3.805e-6
0.364, 4.079e-6, 1.435e-6, 3.818e-6
0.360, 4.096e-6, 1.453e-6, 3.830e-6
0.356, 4.115e-6, 1.469e-6, 3.844e-6
0.352, 4.146e-6, 1.496e-6, 3.866e-6
0.348, 4.177e-6, 1.527e-6, 3.887e-6
0.344, 4.205e-6, 1.550e-6, 3.909e-6
0.340, 4.232e-6, 1.580e-6, 3.926e-6
0.336, 4.290e-6, 1.633e-6, 3.967e-6
0.332, 4.336e-6, 1.677e-6, 3.998e-6
0.328, 4.390e-6, 1.728e-6, 4.035e-6
0.324, 4.461e-6, 1.793e-6, 4.085e-6
0.320, 4.539e-6, 1.870e-6, 4.136e-6
0.316, 4.636e-6, 1.949e-6, 4.206e-6
0.312, 4.729e-6, 2.046e-6, 4.263e-6
0.308, 4.862e-6, 2.171e-6, 4.350e-6
0.304, 4.993e-6, 2.290e-6, 4.437e-6
0.300, 5.158e-6, 2.445e-6, 4.542e-6
0.296, 5.340e-6, 2.605e-6, 4.662e-6
0.292, 5.553e-6, 2.806e-6, 4.792e-6
0.288, 5.783e-6, 3.019e-6, 4.933e-6
0.284, 6.064e-6, 3.266e-6, 5.109e-6
0.280, 6.378e-6, 3.542e-6, 5.304e-6
0.276, 6.733e-6, 3.866e-6, 5.513e-6
0.272, 7.114e-6, 4.211e-6, 5.734e-6
0.268, 7.513e-6, 4.561e-6, 5.970e-6
0.264, 7.983e-6, 4.986e-6, 6.234e-6
0.260, 8.478e-6, 5.425e-6, 6.516e-6
0.256, 9.011e-6, 5.903e-6, 6.808e-6
0.252, 9.522e-6, 6.362e-6, 7.085e-6
0.248, 1.009e-5, 6.865e-6, 7.397e-6
0.244, 1.066e-5, 7.366e-6, 7.703e-6
0.240, 1.124e-5, 7.898e-6, 8.003e-6
0.236, 1.180e-5, 8.391e-6, 8.292e-6
0.232, 1.226e-5, 8.807e-6, 8.530e-6
0.228, 1.274e-5, 9.240e-6, 8.766e-6
0.224, 1.313e-5, 9.599e-6, 8.954e-6
0.220, 1.344e-5, 9.871e-6, 9.121e-6
0.216, 1.367e-5, 1.008e-5, 9.229e-6
0.212, 1.378e-5, 1.019e-5, 9.281e-6
0.208, 1.380e-5, 1.022e-5, 9.272e-

Note: data_txt/acv2.bin.txt
Apr. 7, 2019   11:46:00
A.C. Voltammetry
File: D:\process\data\acv2.bin.txt
Data Source:  Experiment
Instrument Model:  CHI900D
Header: 
Note: 

Init E (V) = 0.5
Final E (V) = -0.1
Incr E (V) = 0.004
Amplitude (V) = 0.025
Frequency (Hz) = 1000
Sample Period (sec) = 0.5
Quiet Time (sec) = 10
Sensitivity (A/V) = 1e-4

Potential/V, Total(i/A), In-phase(i/A), Out-of-phase(i/A)

0.496, 5.938e-5, 2.006e-5, 5.589e-5
0.492, 5.934e-5, 1.998e-5, 5.587e-5
0.488, 5.930e-5, 1.992e-5, 5.586e-5
0.484, 5.928e-5, 1.986e-5, 5.585e-5
0.480, 5.926e-5, 1.981e-5, 5.585e-5
0.476, 5.926e-5, 1.976e-5, 5.586e-5
0.472, 5.925e-5, 1.972e-5, 5.587e-5
0.468, 5.926e-5, 1.969e-5, 5.589e-5
0.464, 5.927e-5, 1.966e-5, 5.592e-5
0.460, 5.929e-5, 1.964e-5, 5.595e-5
0.456, 5.932e-5, 1.961e-5, 5.598e-5
0.452, 5.935e-5, 1.960e-5, 5.602e-5
0.448, 5.939e-5, 1.959e-5, 5.607e-5
0.444, 5.944e-5, 1.959e-5, 5.612e-5
0.440, 5.949e-5, 1.958e-5, 5.618e-5
0.436, 5.956e-5, 1.959e-5, 5.624e-5
0.432, 5.962e-5, 1.960e-5, 5.631e-5
0.428, 5.970e-5, 1.961e-5, 5.638e-5
0.424, 5.978e-5, 1.963e-5, 5.646e-5
0.420, 5.987e-5, 1.965e-5, 5.655e-5
0.416, 5.995e-5, 1.968e-5, 5.663e-5
0.412, 6.005e-5, 1.971e-5, 5.672e-5
0.408, 6.016e-5, 1.975e-5, 5.682e-5
0.404, 6.027e-5, 1.979e-5, 5.692e-5
0.400, 6.038e-5, 1.984e-5, 5.702e-5
0.396, 6.048e-5, 1.989e-5, 5.712e-5
0.392, 6.060e-5, 1.994e-5, 5.722e-5
0.388, 6.071e-5, 2.000e-5, 5.732e-5
0.384, 6.083e-5, 2.007e-5, 5.742e-5
0.380, 6.093e-5, 2.014e-5, 5.751e-5
0.376, 6.105e-5, 2.021e-5, 5.761e-5
0.372, 6.116e-5, 2.029e-5, 5.769e-5
0.368, 6.127e-5, 2.038e-5, 5.778e-5
0.364, 6.137e-5, 2.047e-5, 5.785e-5
0.360, 6.146e-5, 2.056e-5, 5.792e-5
0.356, 6.156e-5, 2.067e-5, 5.798e-5
0.352, 6.165e-5, 2.079e-5, 5.804e-5
0.348, 6.175e-5, 2.092e-5, 5.809e-5
0.344, 6.184e-5, 2.107e-5, 5.813e-5
0.340, 6.192e-5, 2.122e-5, 5.817e-5
0.336, 6.202e-5, 2.141e-5, 5.821e-5
0.332, 6.212e-5, 2.162e-5, 5.824e-5
0.328, 6.223e-5, 2.186e-5, 5.827e-5
0.324, 6.234e-5, 2.212e-5, 5.829e-5
0.320, 6.249e-5, 2.244e-5, 5.832e-5
0.316, 6.264e-5, 2.279e-5, 5.835e-5
0.312, 6.283e-5, 2.321e-5, 5.839e-5
0.308, 6.304e-5, 2.369e-5, 5.842e-5
0.304, 6.327e-5, 2.419e-5, 5.846e-5
0.300, 6.355e-5, 2.481e-5, 5.851e-5
0.296, 6.388e-5, 2.551e-5, 5.857e-5
0.292, 6.425e-5, 2.630e-5, 5.862e-5
0.288, 6.464e-5, 2.712e-5, 5.868e-5
0.284, 6.512e-5, 2.810e-5, 5.874e-5
0.280, 6.565e-5, 2.919e-5, 5.880e-5
0.276, 6.624e-5, 3.039e-5, 5.886e-5
0.272, 6.690e-5, 3.169e-5, 5.892e-5
0.268, 6.756e-5, 3.299e-5, 5.896e-5
0.264, 6.832e-5, 3.448e-5, 5.898e-5
0.260, 6.915e-5, 3.606e-5, 5.900e-5
0.256, 7.001e-5, 3.770e-5, 5.899e-5
0.252, 7.083e-5, 3.924e-5, 5.896e-5
0.248, 7.174e-5, 4.094e-5, 5.891e-5
0.244, 7.264e-5, 4.261e-5, 5.883e-5
0.240, 7.353e-5, 4.425e-5, 5.873e-5
0.236, 7.435e-5, 4.577e-5, 5.860e-5
0.232, 7.504e-5, 4.706e-5, 5.846e-5
0.228, 7.570e-5, 4.829e-5, 5.829e-5
0.224, 7.622e-5, 4.932e-5, 5.811e-5
0.220, 7.659e-5, 5.011e-5, 5.792e-5
0.216, 7.680e-5, 5.064e-5, 5.774e-5
0.212, 7.682e-5, 5.086e-5, 5.756e-5
0.208, 7.665e-5, 5.083e-5, 5.73

File: bel.bin.txt
Apr. 7, 2019   13:54:17
Bulk Electrolysis with Coulometry
File: D:\process\data\bel.bin.txt
Data Source:  Experiment
Instrument Model:  CHI900D
Header:
Note:

Init E (V) = 0
End Current Ratio (%) = 0
Data Storage Interval (s) = 1

Total Q = 5.6334e-5C
End i = 5.2991e-7A

Time/sec, Charge/C, Current/A

1.000, 6.556e-6, 6.556e-6
2.000, 9.579e-6, 3.024e-6
3.000, 1.174e-5, 2.163e-6
4.000, 1.356e-5, 1.822e-6
5.000, 1.517e-5, 1.608e-6
6.000, 1.663e-5, 1.459e-6
7.000, 1.798e-5, 1.349e-6
8.000, 1.924e-5, 1.262e-6
9.000, 2.043e-5, 1.192e-6
10.000, 2.157e-5, 1.134e-6
11.000, 2.265e-5, 1.084e-6
12.000, 2.369e-5, 1.042e-6
13.000, 2.470e-5, 1.004e-6
14.000, 2.567e-5, 9.716e-7
15.000, 2.661e-5, 9.426e-7
16.000, 2.753e-5, 9.163e-7
17.000, 2.842e-5, 8.926e-7
18.000, 2.929e-5, 8.707e-7
19.000, 3.014e-5, 8.510e-7
20.000, 3.098e-5, 8.328e-7
21.000, 3.179e-5, 8.158e-7
22.000, 3.259e-5, 8.002e-7
23.000, 3.338e-5, 7.858e-7
24.000, 3.415e-5, 7.721e-7
25.000, 3.491e-5, 7.595e-7
26.000, 3.566e-5, 7.476e-7
27.000, 3.639e-5, 7.365e-7
28.000, 3.712e-5, 7.259e-7
29.000, 3.784e-5, 7.159e-7
30.000, 3.854e-5, 7.065e-7
31.000, 3.924e-5, 6.975e-7
32.000, 3.991e-5, 6.711e-7
33.000, 4.057e-5, 6.630e-7
34.000, 4.123e-5, 6.553e-7
35.000, 4.188e-5, 6.479e-7
36.000, 4.252e-5, 6.408e-7
37.000, 4.315e-5, 6.340e-7
38.000, 4.378e-5, 6.275e-7
39.000, 4.440e-5, 6.212e-7
40.000, 4.502e-5, 6.152e-7
41.000, 4.562e-5, 6.095e-7
42.000, 4.623e-5, 6.039e-7
43.000, 4.683e-5, 5.985e-7
44.000, 4.742e-5, 5.934e-7
45.000, 4.801e-5, 5.884e-7
46.000, 4.859e-5, 5.836e-7
47.000, 4.917e-5, 5.789e-7
48.000, 4.975e-5, 5.744e-7
49.000, 5.032e-5, 5.701e-7
50.000, 5.088e-5, 5.659e-7
51.000, 5.144e-5, 5.618e-7
52.000, 5.200e-5, 5.578e-7
53.000, 5.256e-5, 5.540e-7
54.000, 5.311e-5, 5.502e-7
55.000, 5.365e-5, 5.466e-7
56.000, 5.420e-5, 5.431e-7
57.000, 5.474e-5, 5.397e-7
58.000, 5.527e-5, 5.363e-7
59.000, 5.580e-5, 5.332e-7
60.000, 5.633e-5, 5.299e-7